time [s]	intensity [a.u.]
1e-005	36218114.7515
0.0029792	26200339.137
0.0059484	14574193.3064
0.0089176	8983161.4399
0.011887	2832856.7826
0.014856	7105820.5658
0.017825	10586057.8233
0.020794	13414598.5169
0.024517	17830835.9345
0.028905	21708391.23
0.034079	25111123.5078
0.040179	28868331.4227
0.04737	32540036.6308
0.055849	33110296.036
0.065846	34793570.8436
0.077632	36337552.5408
0.091528	36325886.5283
0.10791	37091287.03
0.12723	38003265.9445
0.15	0
