time [s]	intensity [a.u.]
1e-005	21046290.5465
0.0014939	11024995.4752
0.0029778	8155233.0438
0.0044617	3851873.1704
0.0059455	710728.4254
0.0074294	4613361.047
0.0089133	6828848.7287
0.010397	9447578.42
0.012258	12342081.0812
0.014452	14747463.1398
0.017039	16968282.0134
0.020089	18733480.7378
0.023685	19984330.4744
0.027925	21256102.2625
0.032923	22001117.4678
0.038816	22742973.6631
0.045764	22885003.9711
0.053956	23012711.6615
0.063613	23296122.5647
0.075	0
