time [s]	intensity [a.u.]
1e-005	34221942.0768
0.0044645	25818119.447
0.008919	16137145.1031
0.013374	8431691.1628
0.017828	4055909.6885
0.022283	2938617.8742
0.026737	9028047.3499
0.031192	13974723.9638
0.036775	17615019.1122
0.043357	20795317.8931
0.051118	22400275.7337
0.060268	28528960.1138
0.071056	29344395.0697
0.083774	32150792.8292
0.098769	36024482.4486
0.11645	36999210.1024
0.13729	37531373.2363
0.16187	38156570.072
0.19084	38496709.2548
0.225	0
